# Format: McCode with text headers
# URL: http://www.mccode.org
# Creator: McStas 2.5 - Nov. 19, 2019
# Instrument: /zhome/89/0/38697/TESTS/2019-11-20/McStas-2.5_CPU_MPICC/ISIS_test/ISIS_test.instr
# Ncount: 1000000
# Trace: no
# Gravitation: no
# Seed: 1574231633
# Directory: 1
# Nodes: 10
# Date: Wed Nov 20 01:05:43 2019 (1574208343)
# type: array_1d(1000)
# Source: ISIS_test (/zhome/89/0/38697/TESTS/2019-11-20/McStas-2.5_CPU_MPICC/ISIS_test/ISIS_test.instr)
# component: lam1
# position: 0 0 0.02
# title: Wavelength monitor
# Ncount: 10000000
# filename: lambdagr.dat
# statistics: X0=1.98325; dX=1.89179;
# signal: Min=5.44932e+06; Max=1.24314e+10; Mean=8.24294e+08;
# values: 8.24294e+11 5.0722e+08 9.99999e+06
# xvar: L
# yvar: (I,I_err)
# xlabel: Wavelength [AA]
# ylabel: Intensity
# xlimits: 0.3 12
# variables: L I I_err N
0.30585 1.243136686e+10 62451277.45 150628 
0.31755 1.241134251e+10 62178924.94 151197 
0.32925 1.181727758e+10 60473671.8 144284 
0.34095 1.172740785e+10 60678022.94 141901 
0.35265 1.092413335e+10 57876650.73 134148 
0.36435 1.085052077e+10 58374355.34 130911 
0.37605 1.067490763e+10 57660518.16 128897 
0.38775 1.033017818e+10 56887032.76 125270 
0.39945 9980112854 55723982.96 121125 
0.41115 9683044735 55061318.03 117427 
0.42285 9460809598 54352956.14 115259 
0.43455 9266487697 53929868.78 112402 
0.44625 9114927993 53503991.66 110501 
0.45795 8812181383 52795397.8 106055 
0.46965 8458092159 51782310.94 101578 
0.48135 8204199403 50934535.8 99260 
0.49305 7964655118 49893637.14 96602 
0.50475 7764956257 49145277.34 94796 
0.51645 7648729771 49005502.99 92264 
0.52815 7308332514 48112903.23 88332 
0.53985 7127220602 47392439.19 85860 
0.55155 7068667161 46983114 86175 
0.56325 7105329421 46986731.23 85995 
0.57495 7088084883 47109552.92 85285 
0.58665 6849622041 46482377.32 83226 
0.59835 6672452627 45403943.59 81596 
0.61005 6559942787 45237524.79 79767 
0.62175 6386433752 44522498.51 78080 
0.63345 6312650141 44345101.96 76564 
0.64515 6198303825 43866960.26 75059 
0.65685 5985201981 43224599.34 72668 
0.66855 5841615265 42890520.3 70563 
0.68025 5667666642 42302438.35 68612 
0.69195 5543473806 41913021.37 66476 
0.70365 5327706043 40545104.15 64621 
0.71535 5185825157 39901638.85 63355 
0.72705 5060526562 39765625.46 61537 
0.73875 4874827548 38971532.23 59435 
0.75045 4758452148 38575238.78 57720 
0.76215 4585923141 37857632.87 55371 
0.77385 4438506380 37199894.83 54010 
0.78555 4332683221 36639206.08 52828 
0.79725 4240426180 36570068.04 51668 
0.80895 4101546921 35649826.6 50061 
0.82065 3998403471 35456651.22 48422 
0.83235 3873301037 34775804.8 47008 
0.84405 3824190353 34556780.98 46268 
0.85575 3765373456 34340123.67 45684 
0.86745 3638879653 33684685.19 44247 
0.87915 3525180532 33270411.49 42617 
0.89085 3445314999 33034184.26 41451 
0.90255 3281812763 31911157.15 40046 
0.91425 3218033935 31356833.26 39173 
0.92595 3202387449 31835327.16 38314 
0.93765 3077140676 30965975.95 37130 
0.94935 2982349717 30347493.99 36483 
0.96105 2994724707 30820525.89 35851 
0.97275 2851399815 29519252.27 35085 
0.98445 2855020326 30027595.85 34508 
0.99615 2852425931 30224549.34 34084 
1.00785 2718847477 28886094.54 33145 
1.01955 2675359255 28898720.83 32719 
1.03125 2573685876 28226385.55 31434 
1.04295 2542663797 28310010.05 30644 
1.05465 2468479484 27757014.92 29971 
1.06635 2407857782 27238173.18 29241 
1.07805 2383948985 26883147.5 29432 
1.08975 2371836445 27222410.32 28738 
1.10145 2362351322 27365786.63 28014 
1.11315 2251521069 26429111.46 27150 
1.12485 2167930343 25909920.08 26516 
1.13655 2199048017 26474503.66 26326 
1.14825 2107409865 25710390.45 25461 
1.15995 2033652814 24671587.16 25436 
1.17165 2014278257 24740863.7 25039 
1.18335 2055781778 24820453.33 25285 
1.19505 2007726972 24859987.47 24597 
1.20675 2055268589 25499092.26 24480 
1.21845 1950598539 24745330.81 23649 
1.23015 1947970847 24835314.48 23415 
1.24185 1894068639 24467074.17 22869 
1.25355 1880117298 24356341.49 22804 
1.26525 1884245690 24722675.36 22524 
1.27695 1767162735 23156851.68 21966 
1.28865 1782003928 23711826.02 21550 
1.30035 1748432067 23414905.62 21119 
1.31205 1746378891 23643433.9 21022 
1.32375 1704923903 22995529.43 20720 
1.33545 1739474575 23236084.6 20932 
1.34715 1698014787 22865592.52 20793 
1.35885 1652894544 22421916.44 20376 
1.37055 1669412951 23098105.27 20061 
1.38225 1593612259 22083225.04 19442 
1.39395 1565261950 21983619.46 18911 
1.40565 1552686075 22166694.68 18535 
1.41735 1508604000 21636368.42 18523 
1.42905 1496520881 21634888.48 18398 
1.44075 1525894561 21789146.39 18404 
1.45245 1493533160 21474770.96 18183 
1.46415 1490029022 21863088.4 17727 
1.47585 1435228466 21061186.71 17555 
1.48755 1448932902 21495676.99 17313 
1.49925 1397121741 20640924.81 17100 
1.51095 1426175704 21095295.9 17121 
1.52265 1354649775 20304419.3 16919 
1.53435 1395016285 20901315.13 16794 
1.54605 1388756645 20784013.96 16962 
1.55775 1372351212 20966283.81 16557 
1.56945 1353979665 20417140.57 16294 
1.58115 1324996401 20485578.8 15918 
1.59285 1331667762 20014312.66 16197 
1.60455 1319849364 20540859.86 15913 
1.61625 1308908671 20110074.9 16042 
1.62795 1314497123 20326383.03 15812 
1.63965 1305324383 20298692.94 15557 
1.65135 1280655008 19829711.77 15686 
1.66305 1272468040 20141873.48 15225 
1.67475 1247817485 19613038.02 15315 
1.68645 1250121952 19809166.04 15099 
1.69815 1219533979 19725206.69 14790 
1.70985 1210441554 19295916.14 14688 
1.72155 1205913599 19829651.34 14408 
1.73325 1197902198 19421459.11 14477 
1.74495 1161228527 18777801.82 14340 
1.75665 1144137317 18670801.76 14195 
1.76835 1154090541 18802623.38 14138 
1.78005 1168924438 18973986.69 14136 
1.79175 1135184179 18837053.15 13870 
1.80345 1155172738 19051145.51 13923 
1.81515 1118741582 18664350.38 13677 
1.82685 1125804745 18819948.19 13699 
1.83855 1110379481 18280172.4 13619 
1.85025 1109241304 18620357.08 13568 
1.86195 1081847023 18222849.34 13320 
1.87365 1106744237 18828659.75 13193 
1.88535 1095731524 18297690.26 13352 
1.89705 1097372115 18391764.79 13380 
1.90875 1111180320 18587022.68 13403 
1.92045 1090716336 18480341.39 13154 
1.93215 1041893231 17745176.98 12901 
1.94385 1079952324 18280859.54 13063 
1.95555 1090732406 18252309.47 13322 
1.96725 1082114622 18322120.48 13005 
1.97895 1057640679 18084683.65 13163 
1.99065 1068627837 18316740.71 12866 
2.00235 1041804606 17737075.96 12814 
2.01405 1050918709 18192221.81 12622 
2.02575 1102708223 19060865.29 12855 
2.03745 1054207094 18173439.33 12833 
2.04915 1077644983 18665804.82 12932 
2.06085 1054593290 18174813.28 12780 
2.07255 1043492998 17883568.84 12691 
2.08425 1041006267 17829763.47 12691 
2.09595 1015485736 17508145.28 12611 
2.10765 1010414460 17251266.79 12643 
2.11935 1071708309 18483550.49 12723 
2.13105 1022830524 17548984.39 12669 
2.14275 1054751937 18118176.68 12655 
2.15445 1031696631 17959996.62 12511 
2.16615 1063977915 18761903.99 12530 
2.17785 1040708826 17934564.6 12648 
2.18955 1029565161 17694660.98 12676 
2.20125 1014562409 17590011.1 12510 
2.21295 1015012723 17444577.51 12657 
2.22465 1078013671 18372713.85 13069 
2.23635 1043243857 17927918.4 12788 
2.24805 1056769935 17989740.81 12897 
2.25975 1097677417 18716914.92 13174 
2.27145 1054050249 18002201.33 12973 
2.28315 1088283068 18631382.02 13065 
2.29485 1032916091 17630900.59 12767 
2.30655 1074068477 18305125.8 12911 
2.31825 1032318093 17745983.31 12683 
2.32995 1080945628 18596946.85 12978 
2.34165 1055156496 17927536.44 12966 
2.35335 1074329209 18549881.02 12841 
2.36505 1060921994 17849580.07 12998 
2.37675 1061068666 18061238.17 12904 
2.38845 1042586732 17732159.47 12868 
2.40015 1061059348 17932659.06 13020 
2.41185 1087621063 18773035.82 12980 
2.42355 1064281450 18126298.87 13050 
2.43525 1089880064 18419803.61 13104 
2.44695 1092152951 18439462.13 13146 
2.45865 1050913401 18125575.83 12879 
2.47035 1090439100 18468383.31 13318 
2.48205 1073765549 18264834.05 13032 
2.49375 1088451112 18203954.07 13175 
2.50545 1093113806 18517665.96 13227 
2.51715 1071202114 18137530.42 13270 
2.52885 1124256896 19307083.79 13245 
2.54055 1128432176 18836452.47 13472 
2.55225 1109756698 18771612.78 13457 
2.56395 1147621158 18895983.88 13890 
2.57565 1123268773 18779836.26 13670 
2.58735 1148305070 19039924.15 13662 
2.59905 1127167974 19116362.48 13620 
2.61075 1124234782 18644679.75 13592 
2.62245 1120531069 18684670.96 13555 
2.63415 1127874005 18749768.28 13575 
2.64585 1123101828 18866808.54 13672 
2.65755 1125665341 18590312.98 13758 
2.66925 1111776063 18690212.07 13590 
2.68095 1125600837 18730826.57 13632 
2.69265 1113609490 18736049.43 13462 
2.70435 1131609528 18890539.18 13663 
2.71605 1138249400 18815864.83 13810 
2.72775 1147307670 19142259.93 13584 
2.73945 1138751569 18810067.64 13656 
2.75115 1139446549 19116469.16 13514 
2.76285 1105609675 18290201.42 13672 
2.77455 1135382472 18660914.26 13902 
2.78625 1127440525 18955313.47 13786 
2.79795 1118830762 18329139.42 13911 
2.80965 1143800345 18635431.81 13975 
2.82135 1195841140 19410132.97 14249 
2.83305 1181532087 19322893.96 14295 
2.84475 1190262830 19421926.14 14242 
2.85645 1187132888 19219073.75 14214 
2.86815 1150250113 19205374.94 14025 
2.87985 1124019061 18752793.51 13778 
2.89155 1178219931 19316531.37 14118 
2.90325 1132423750 18788498.1 13771 
2.91495 1146237006 18999171.47 13850 
2.92665 1142001090 18677735.35 13958 
2.93835 1157735453 19072175.54 13820 
2.95005 1148962986 19170222.2 13875 
2.96175 1164959702 19232382.93 14035 
2.97345 1168977109 19234432.16 13963 
2.98515 1178951571 19099192.51 14103 
2.99685 1142955961 18778090.5 13903 
3.00855 1166128288 19155304.37 14166 
3.02025 1180817375 19140995.6 14361 
3.03195 1148253111 18601940.69 14232 
3.04365 1180290004 19199125.86 14275 
3.05535 1176854398 19023976.94 14399 
3.06705 1192607221 19389848.44 14350 
3.07875 1161821499 18763497.7 14226 
3.09045 1211991709 19576798.64 14576 
3.10215 1195706435 19840290.08 14240 
3.11385 1145190146 18462221.38 14248 
3.12555 1197743152 19253418.9 14419 
3.13725 1177882780 19030583.87 14371 
3.14895 1190525255 19303822.71 14422 
3.16065 1207483650 19427092.08 14319 
3.17235 1200768735 19620646.18 14120 
3.18405 1188622048 19514332.98 14273 
3.19575 1168962226 19129112.91 14334 
3.20745 1143260947 18681974.67 13936 
3.21915 1163191976 19014419.26 14153 
3.23085 1116547498 18279130.98 14063 
3.24255 1165201318 19087715.43 14099 
3.25425 1157188470 18950670.14 14059 
3.26595 1126667644 18495472.73 13921 
3.27765 1110503134 18436211.76 13581 
3.28935 1145279832 18901296.81 13804 
3.30105 1133828851 18498659.25 13830 
3.31275 1095614369 18306609.21 13486 
3.32445 1136287989 18769810.96 13739 
3.33615 1123712063 19077695.87 13440 
3.34785 1104950080 18574125.32 13329 
3.35955 1112874306 18620778.21 13626 
3.37125 1133849458 19207087.8 13375 
3.38295 1095395096 18522836.12 13269 
3.39465 1095037213 18455338.23 13224 
3.40635 1076766966 17975854.31 13169 
3.41805 1104696219 18675228.28 13313 
3.42975 1084853866 18468118.72 13182 
3.44145 1100946431 18839012.58 13184 
3.45315 1063547273 18085382.4 12893 
3.46485 1064095129 18319713.44 13006 
3.47655 1059223171 18373002.54 12942 
3.48825 1045817845 17865733.66 12784 
3.49995 1122374775 18874242.93 13093 
3.51165 1027001389 17693805.24 12599 
3.52335 1057200591 18412068.59 12540 
3.53505 1057648583 18397268.82 12785 
3.54675 1052733193 18248197.96 12688 
3.55845 1051018229 18477261.85 12562 
3.57015 1046272832 18039121.28 12633 
3.58185 1030066654 17694159.75 12768 
3.59355 1037379642 17876694.01 12674 
3.60525 1021512529 17720982.23 12699 
3.61695 1028702961 17816190.67 12450 
3.62865 993630825.4 17370409.1 12281 
3.64035 991435026.1 17389242.63 12187 
3.65205 997728364.3 17399276.98 12237 
3.66375 1014193686 18016558.85 12243 
3.67545 1006719984 17689344.66 12088 
3.68715 1024681385 18371941.58 12106 
3.69885 986884134.7 17878949.84 11871 
3.71055 969937704.1 17066883.48 12028 
3.72225 972648620.4 17217323.84 11917 
3.73395 974925361.5 17501502.66 11879 
3.74565 943884720.7 16914816.08 11669 
3.75735 952370766.5 16981950.18 11626 
3.76905 951220993.5 17008395.35 11563 
3.78075 969372195.3 17726354.97 11608 
3.79245 939273276.9 17207112.29 11478 
3.80415 926460170 17222586.37 11127 
3.81585 927539476 17342285.69 11175 
3.82755 907516422.8 16574924.85 11287 
3.83925 922891130.1 17039103.46 11259 
3.85095 911637501.6 16895453.7 11079 
3.86265 902180121.3 16554604.36 11084 
3.87435 900878407 16651423.26 11074 
3.88605 912347970 16895344.46 11021 
3.89775 890968917.5 16659893.12 10860 
3.90945 908300065.7 16965194.69 10905 
3.92115 909902743.1 17184521.26 10926 
3.93285 898706533 16741943.68 10865 
3.94455 841231779.5 15637442.14 10555 
3.95625 910791629.2 17119032.41 10759 
3.96795 870042832.9 16507273.04 10532 
3.97965 858037796.8 16339707.51 10412 
3.99135 860807669.8 16338530.37 10353 
4.00305 842690633.9 15998332.59 10365 
4.01475 862201618.5 16558985.38 10368 
4.02645 878658977 17000024.54 10442 
4.03815 841525507.3 16058923.93 10340 
4.04985 828830190.2 15978830.94 10127 
4.06155 876685196 16983858.02 10284 
4.07325 826829871.3 16255011.72 9917 
4.08495 794610049.6 15611025.35 9858 
4.09665 809244719.5 15964764.02 9917 
4.10835 822309506.8 16179816.37 9906 
4.12005 826307859 16199583.61 9796 
4.13175 803255051.7 15802131.95 9878 
4.14345 782770341.4 15385922.39 9646 
4.15515 767408125.6 15329451.96 9354 
4.16685 775831502.4 15634650.76 9526 
4.17855 778661100 15615171.82 9360 
4.19025 749913872.5 15176397.46 9239 
4.20195 764460539.9 15064939.36 9471 
4.21365 765433215.6 15367113.67 9264 
4.22535 776896057.3 16019201.79 9204 
4.23705 760745810.8 15578335.08 9196 
4.24875 759917560.1 15513472.28 9028 
4.26045 768961677.6 15873738.52 9131 
4.27215 744946222.5 15478036.67 8905 
4.28385 746979032.6 15463465.53 8874 
4.29555 763366139.1 15781311.1 9030 
4.30725 748006205.9 15548003.35 8940 
4.31895 688985591.7 13981280.73 8734 
4.33065 716362444.9 14953263.35 8718 
4.34235 706402630.2 14564463.18 8678 
4.35405 701168587.9 14691189.06 8605 
4.36575 719595966.6 14898514.84 8732 
4.37745 697408145.5 14764706.42 8505 
4.38915 701530970.5 14963200.96 8625 
4.40085 709183808.4 14787775.12 8640 
4.41255 687052321.8 14554407.64 8397 
4.42425 664128228.7 14143827.4 8316 
4.43595 664374674.8 14211735.75 8261 
4.44765 673421272.4 14417905.25 8137 
4.45935 675722683.3 14496707.68 8235 
4.47105 715835939.8 15362050.29 8299 
4.48275 676108894.9 14812928.34 8123 
4.49445 663953344.5 14502608.02 8032 
4.50615 651631647.3 14275836.91 7959 
4.51785 636506128.7 13751249.48 7871 
4.52955 632649362.3 13954708.36 7700 
4.54125 652095827.3 14347048.34 7851 
4.55295 609759665.5 13395762.52 7575 
4.56465 599088456.8 13299420.39 7542 
4.57635 591916314.1 13296779.83 7443 
4.58805 619789399.2 13700408.8 7557 
4.59975 613698945.7 13925654.63 7325 
4.61145 632911077.6 14079625.38 7504 
4.62315 611207853 14203085.74 7160 
4.63485 589731544.2 13440522.92 7250 
4.64655 577753975.4 13629826.21 7007 
4.65825 546938495.8 12823494.13 6934 
4.66995 556942862.8 12848899.2 6922 
4.68165 583297330.3 13582745.51 7002 
4.69335 576193190.6 13554282.12 7027 
4.70505 582025952 14098732.91 6868 
4.71675 587849844.3 13802603.52 6843 
4.72845 555868896.6 13084346.63 6836 
4.74015 552314582 12833696.11 6757 
4.75185 556428866.7 13145875.84 6788 
4.76355 549823627.2 13137459.85 6501 
4.77525 564221484.8 13432973.49 6741 
4.78695 544166169.4 13175628.32 6626 
4.79865 546314050.3 13141838.94 6562 
4.81035 544339803.3 12954871.75 6614 
4.82205 549452724.6 13251067.26 6504 
4.83375 540840695.1 12873763.99 6388 
4.84545 536773016.2 12914852.92 6422 
4.85715 510751166.5 12466026.61 6420 
4.86885 507220326.4 12614377.93 6225 
4.88055 512711048.2 12550086.8 6289 
4.89225 525572987.5 12865235.31 6167 
4.90395 514831220.4 12745780.55 6183 
4.91565 505473703.2 12333667.28 6196 
4.92735 493183802.4 12289670.64 6060 
4.93905 465750720.3 11760434.96 5883 
4.95075 482546048.6 12014445.85 5901 
4.96245 451413434.6 11207885.69 5851 
4.97415 493601527.4 12347729.06 5860 
4.98585 466398547.1 12157748.78 5630 
4.99755 459727735.2 11722377.88 5602 
5.00925 473604073.1 12254400.09 5660 
5.02095 461701814 12155104.28 5639 
5.03265 472598281.3 12160372.71 5652 
5.04435 458772470 11885450.11 5617 
5.05605 474359334 12546489.87 5521 
5.06775 451133333.1 11581503.99 5657 
5.07945 457735233.6 11956665.3 5542 
5.09115 435516372.9 11472780.85 5430 
5.10285 457150323.9 11743865.6 5560 
5.11455 443355537.4 11772918.7 5364 
5.12625 444002542.1 11766365.8 5382 
5.13795 418467065.6 11122860.6 5290 
5.14965 446748001.6 11850262.8 5374 
5.16135 436015408 11514668.86 5238 
5.17305 426158168.8 11367214.92 5241 
5.18475 418911282.5 11374013.1 5140 
5.19645 418126609.5 11539833.9 5059 
5.20815 433291929 11899786.5 5039 
5.21985 425479696.2 11832745.35 5041 
5.23155 434226574.3 11867334.09 5199 
5.24325 393260828.8 10598419.75 5024 
5.25495 408616616.8 11200965.03 5009 
5.26665 402439338.6 11228749.96 4903 
5.27835 416603594.4 11475980.52 4842 
5.29005 395499016.6 11285299.56 4763 
5.30175 397123330.7 11007213.39 4862 
5.31345 409687043.5 11608920.97 4812 
5.32515 410706036 11720827.41 4735 
5.33685 403789371.4 11163567.05 4682 
5.34855 387811806.9 10654848.4 4757 
5.36025 371801292.8 10545949.27 4695 
5.37195 374863881.1 10676728.67 4555 
5.38365 377742622 10895242.39 4603 
5.39535 366899238.1 10823069.6 4448 
5.40705 359100983.7 10428560.07 4496 
5.41875 382807789.5 11225447 4549 
5.43045 362249086 10501628.87 4416 
5.44215 347382553.4 10318234.25 4243 
5.45385 361734001.3 10561399.23 4353 
5.46555 353466260.5 10478254.01 4293 
5.47725 345190889.3 10093145.31 4289 
5.48895 349805424.1 10680817.64 4176 
5.50065 351571620.1 10310511.59 4244 
5.51235 353321587.2 10645150.59 4189 
5.52405 347154821.7 10575276.65 4114 
5.53575 339799468.1 10309353.51 4063 
5.54745 337605782 10363209.76 4070 
5.55915 334199471.1 10153234.86 4141 
5.57085 350151050.3 10708026.02 4059 
5.58255 336122153.9 10147589.44 4104 
5.59425 321219081.3 9873734.136 3921 
5.60595 303431286.5 9415572.01 3825 
5.61765 335219803.3 10396047.15 3983 
5.62935 332934942.5 10327278.73 4026 
5.64105 326486482.8 10231574.62 3905 
5.65275 303346553.2 9239993.747 3885 
5.66445 326304623.1 10224326.26 3898 
5.67615 310183938 9816289.498 3813 
5.68785 297130030.7 9204426.965 3748 
5.69955 321632120.3 10299867.96 3795 
5.71125 305810137.5 9655370.731 3722 
5.72295 292675364.2 9304278.196 3718 
5.73465 298015520.5 9712836.842 3615 
5.74635 307834083.8 9843306.781 3652 
5.75805 304773489.2 9890283.39 3526 
5.76975 300545184.3 9839433.718 3633 
5.78145 289626661.6 9403618.64 3555 
5.79315 286881718 9445465.791 3467 
5.80485 279855591.4 9158543.712 3515 
5.81655 286349556 9584608.392 3442 
5.82825 267858352.1 9113432.156 3324 
5.83995 282589149.7 9442175.384 3329 
5.85165 264757831.9 8826924.748 3266 
5.86335 266296047.5 9136663.81 3218 
5.87505 275541214.3 9325223.617 3321 
5.88675 266464315.6 9146012.927 3220 
5.89845 278288427.7 9698736.126 3176 
5.91015 259564235.4 8726120.732 3199 
5.92185 262253912.2 8978663.022 3268 
5.93355 253865837.4 9105466.751 3044 
5.94525 263859939.4 9159576.043 3126 
5.95695 261929309.5 9283103.169 3136 
5.96865 244763509 8439072.908 3048 
5.98035 240189811.4 8264933.734 3042 
5.99205 241204726.4 8413570.553 2988 
6.00375 244221654.4 8553532.038 3131 
6.01545 260980082.9 9283629.752 3039 
6.02715 255670683.7 9302501.907 3006 
6.03885 246136050.8 8844394.714 2920 
6.05055 248733495.9 8825521.001 2919 
6.06225 258135343.9 9347293.07 2961 
6.07395 222393381.8 8033964.232 2875 
6.08565 236727847.9 8532918.552 2835 
6.09735 228982979.3 8248650.21 2889 
6.10905 232717657.9 8652075.214 2820 
6.12075 228559372 8407617.121 2821 
6.13245 239940749.7 8749103.476 2825 
6.14415 215128757.5 7808235.161 2734 
6.15585 207029702.5 7728208.169 2668 
6.16755 230939291.4 8554165.327 2758 
6.17925 218492373.1 7942622.027 2700 
6.19095 233177228.5 8974225.741 2694 
6.20265 214064563.2 8314405.383 2623 
6.21435 228158955.7 8442522.405 2626 
6.22605 220942887.1 8514379.025 2576 
6.23775 224928187.8 8424031.263 2710 
6.24945 212777842.5 7898375.887 2553 
6.26115 212885807.7 8047638.101 2514 
6.27285 221976152 8612495.313 2591 
6.28455 210407219.1 8093646.249 2563 
6.29625 219000519.2 8522239.24 2612 
6.30795 207361472.2 8107431.605 2519 
6.31965 204668411.9 8177582.411 2418 
6.33135 197157427.1 7678211.706 2401 
6.34305 194558878.1 7659118.155 2419 
6.35475 209977990.7 8251645.967 2490 
6.36645 190497659.9 7094813.089 2476 
6.37815 200079581.1 7983675.34 2356 
6.38985 198231824.1 7892829.352 2333 
6.40155 188349367.4 7730202.982 2291 
6.41325 181628837.8 7601066.055 2262 
6.42495 179001573.9 7227744.03 2282 
6.43665 173521565.4 6853230.142 2241 
6.44835 174146057.1 7302284.601 2224 
6.46005 174822417 7376629.564 2157 
6.47175 179744137 7499203.736 2202 
6.48345 195908738.5 8017629.749 2320 
6.49515 195034966.9 8085307.695 2270 
6.50685 178795579.9 7710711.283 2100 
6.51855 183023637.5 7708544.818 2198 
6.53025 174561600.8 7422587.709 2142 
6.54195 162907087.8 6879200.274 2105 
6.55365 171949336.9 7421902.665 2108 
6.56535 182930143.5 7907571.868 2100 
6.57705 158633979.3 6757591.728 2032 
6.58875 174587150.3 7261367.669 2110 
6.60045 170669011.8 7161032.044 2003 
6.61215 164069461.4 7109910.183 2078 
6.62385 161912046.2 7164872.891 1967 
6.63555 163826648.4 7185119.431 1922 
6.64725 161674642.1 7293682.827 1950 
6.65895 159413130.9 6872074.6 1949 
6.67065 159758503.8 7187056.298 1873 
6.68235 175118721.6 7754107.737 1961 
6.69405 159564397.2 7036852.978 1937 
6.70575 162502411.6 7148967.042 1939 
6.71745 162807039.4 7269584.187 1846 
6.72915 163318469.9 7235542.096 1939 
6.74085 155418334.7 6828900.64 1875 
6.75255 155381041.5 6986599.237 1888 
6.76425 161198541.1 7130090.289 1854 
6.77595 148995800.3 6688238.862 1832 
6.78765 135244494.7 6216323.132 1792 
6.79935 153033881.7 6608780.852 1849 
6.81105 148659120.4 6738396.938 1847 
6.82275 145741327.2 6521530.14 1816 
6.83445 148995384.8 6839846.902 1757 
6.84615 153352139.2 7161709.199 1782 
6.85785 148654718.7 6741271.288 1811 
6.86955 149580431.5 6496002.468 1863 
6.88125 135741026.8 6362911.918 1724 
6.89295 151239832 7134113.514 1755 
6.90465 149818896.2 7163544.728 1741 
6.91635 148689118.3 6737427.779 1743 
6.92805 138316986.8 6591800.939 1713 
6.93975 136249968.7 6335445.452 1689 
6.95145 135045714.6 6630613.562 1666 
6.96315 139126301.1 6594478.321 1683 
6.97485 134919728.7 6120616.375 1643 
6.98655 123895497.2 6007813.163 1596 
6.99825 136707786.2 6414525.662 1624 
7.00995 127173906.6 6224082.82 1617 
7.02165 132510080.3 6612935.987 1570 
7.03335 123242113.9 5984273.142 1587 
7.04505 122736921.5 6022514.844 1559 
7.05675 124307926.7 6357080.656 1529 
7.06845 118109453.5 5924734.705 1485 
7.08015 128437093.4 6527400.807 1525 
7.09185 111542218.5 5523564.624 1465 
7.10355 123993289.1 6096413.277 1511 
7.11525 119738998.5 5996360.657 1520 
7.12695 129168430.4 6633388.483 1528 
7.13865 122667739 6416336.953 1427 
7.15035 128769663.8 6645558.116 1456 
7.16205 116893596.5 5886549.432 1442 
7.17375 113682208.6 5545312.331 1423 
7.18545 123453457.4 6303055.714 1422 
7.19715 109798026.6 5631277.751 1395 
7.20885 113123893.8 5958581.846 1381 
7.22055 128964846.1 6905230.086 1408 
7.23225 115333041.1 6148404.275 1370 
7.24395 112756175.2 5830178.667 1383 
7.25565 108162806.8 5715399.779 1316 
7.26735 109579679.6 6051011.976 1317 
7.27905 112328651.4 5916237.335 1335 
7.29075 103101927.5 5268488.827 1319 
7.30245 109840406.2 5571753.009 1320 
7.31415 112766185.5 5971401.418 1337 
7.32585 101230802.7 4990886.853 1343 
7.33755 106841681.3 5651929.909 1318 
7.34925 111454981.8 5863350.332 1293 
7.36095 121453349 6745999.409 1306 
7.37265 104488743 5632852.291 1249 
7.38435 105429196.1 5731634.529 1278 
7.39605 101720589.7 5656185.778 1252 
7.40775 100463265.6 5533936.438 1234 
7.41945 105216179.2 5819894.15 1275 
7.43115 107929174.1 5808324.957 1262 
7.44285 104748224.1 5965540.054 1244 
7.45455 96963001.68 5739609.004 1148 
7.46625 96311191.97 5432101.304 1252 
7.47795 106979059.7 5984206.118 1244 
7.48965 97376592.3 5408861.703 1182 
7.50135 92206767.74 5201846.479 1181 
7.51305 102934621.6 6042996.349 1211 
7.52475 103578030.7 5640801.594 1193 
7.53645 99908567.39 5879569.198 1183 
7.54815 98198344.98 5862095.11 1158 
7.55985 92013281.52 5007412.489 1218 
7.57155 92657330.87 5342132.24 1130 
7.58325 94492914.53 5529026.8 1137 
7.59495 87520650.96 4898311.857 1107 
7.60665 92414013.44 5549796.966 1100 
7.61835 96896269.89 5629780.296 1124 
7.63005 86728339.89 4951697.887 1113 
7.64175 95678128.17 5681130.977 1109 
7.65345 89002592.36 5162674.537 1089 
7.66515 83502703.7 4929114.44 1059 
7.67685 83826002.22 4881851.921 1057 
7.68855 88024195.03 5374555.981 1061 
7.70025 89180487.5 5202843.828 1092 
7.71195 80305494.91 4794479.13 1067 
7.72365 79446579.66 4756457.195 994 
7.73535 74809338.59 4775385.29 940 
7.74705 83549554.58 5332128.618 967 
7.75875 85699821.86 5186602.532 984 
7.77045 84922710.28 5110640.308 1064 
7.78215 87096653.96 5196445.126 1022 
7.79385 86241929.27 5129634.102 1033 
7.80555 82474747.07 5042762.08 963 
7.81725 81275833.73 5002137.757 974 
7.82895 79808945.25 5251069.899 951 
7.84065 74660047.49 4422892.452 952 
7.85235 86649777.14 5452031.48 968 
7.86405 80914455.17 5088287.283 948 
7.87575 85220578.05 5276434.974 963 
7.88745 80210556.75 4950575.672 1003 
7.89915 76235143.51 4786733.949 972 
7.91085 70354277.73 4581465.454 917 
7.92255 71804962.73 4674220.082 913 
7.93425 74667905.9 4876124.573 919 
7.94595 72421507 4946153.813 879 
7.95765 76890302.71 5021817.759 901 
7.96935 71072880.6 4929275.661 834 
7.98105 75199903.53 4932870.147 912 
7.99275 75554162.38 5011790.13 882 
8.00445 73560593.72 4744127.378 917 
8.01615 76748656.13 5065409.273 902 
8.02785 69856489.87 4097005.911 904 
8.03955 69288969.97 4601033.918 845 
8.05125 68686658.78 4418583.06 879 
8.06295 71845441.06 4720556.387 884 
8.07465 76379797.68 5080717.334 809 
8.08635 60050703.01 3744790.926 866 
8.09805 65207888.84 4258790.385 846 
8.10975 60598980.74 4098924.412 817 
8.12145 59275554.64 3905755.285 820 
8.13315 64507545.18 4300101.073 821 
8.14485 62017049.1 4381763.864 794 
8.15655 74766818.75 5131360.128 839 
8.16825 60397099.96 4173367.76 756 
8.17995 70985641.57 4923171.343 854 
8.19165 71806796.05 5016396.722 797 
8.20335 70475153.92 4825180.121 800 
8.21505 65922114.36 4531895.618 828 
8.22675 60125926.9 3994311.192 782 
8.23845 66832040.11 4711708.596 770 
8.25015 72124028.45 4969704.408 795 
8.26185 65105696.97 4795596.006 748 
8.27355 64167748.59 4266874.071 792 
8.28525 60967478.53 4253262.104 743 
8.29695 58148252.15 3972163.48 779 
8.30865 66864703.76 4607773.423 756 
8.32035 62614620.97 4290646.223 748 
8.33205 55483098.01 4074256.855 684 
8.34375 63881741.48 4448595.425 722 
8.35545 58307181.35 4181624.839 715 
8.36715 54853587.13 3942242.758 713 
8.37885 57194470.8 4014214.492 708 
8.39055 59944563.24 4409778.206 710 
8.40225 57206767.73 3986205.671 712 
8.41395 55674186.59 4277550.477 663 
8.42565 58032406.49 3900128.032 770 
8.43735 56612270.47 4034249.39 700 
8.44905 59111954.94 4102758.247 693 
8.46075 54948453.19 3862001.898 668 
8.47245 52971232.01 4350335.868 665 
8.48415 57209531.88 4096948.549 699 
8.49585 49318744.05 3780528.944 642 
8.50755 52761153.09 3813469.724 685 
8.51925 46544541.53 3691315.369 637 
8.53095 49050066.53 3859561.999 633 
8.54265 50824872.15 3939885.926 644 
8.55435 47732285.09 3663776.86 603 
8.56605 53596956.13 3948547.593 678 
8.57775 55898201.35 4449997.591 607 
8.58945 59428535.52 4527778.094 639 
8.60115 49095552.5 3712894.674 645 
8.61285 51271600.87 3808477.055 649 
8.62455 45274327.4 3392238.778 605 
8.63625 47193361.49 3569675.298 614 
8.64795 54191649.73 4320621.043 606 
8.65965 48926444.77 3696862.705 642 
8.67135 49599012.21 3707048.263 613 
8.68305 52529936.36 3801015.041 630 
8.69475 48447040.81 3652106.953 628 
8.70645 60500586.13 4588624.14 659 
8.71815 49677213.14 3811272.538 609 
8.72985 52448557.61 3761332.503 672 
8.74155 56145127.29 4110821.783 662 
8.75325 54514750.26 4238293.406 625 
8.76495 61945142.93 4346345.85 778 
8.77665 62065026.78 4557287.066 785 
8.78835 59876066.41 4023839.375 795 
8.80005 67667268.52 4728510.605 828 
8.81175 70465237.26 4874572.12 831 
8.82345 74934790.42 4878357.953 872 
8.83515 74882599.81 4915414.04 921 
8.84685 76540852.23 4992265.984 967 
8.85855 80475758.69 4846417.796 1001 
8.87025 96792873.82 5773549.936 1030 
8.88195 85905165.54 5093582.495 1063 
8.89365 98314172.68 5677187.757 1127 
8.90535 96299793.24 5585820.679 1146 
8.91705 91400749.97 5212325.193 1147 
8.92875 102336048.1 5734561.283 1204 
8.94045 90733803.27 5045596.274 1125 
8.95215 97897931.28 5645057.368 1143 
8.96385 96784768.62 5512367.442 1158 
8.97555 89414769.31 5385108.603 1082 
8.98725 83541845.49 5069109.888 1020 
8.99895 85962046.6 5487902.72 1014 
9.01065 81887586.63 4946124.622 995 
9.02235 69582119.63 4891241.833 853 
9.03405 72011757.36 4826845.159 796 
9.04575 51403824.53 3895911.702 689 
9.05745 43784003.77 3449235.095 569 
9.06915 48494216.79 3998494.712 549 
9.08085 43944939.51 3515154.653 563 
9.09255 42575047.57 3679830.939 488 
9.10425 45771578.43 4030540.897 508 
9.11595 46257318.71 3931020.838 512 
9.12765 38771802.58 3454970.126 502 
9.13935 39701652.94 3642730.031 465 
9.15105 32008285.87 3227428.151 436 
9.16275 32799339.13 3021490.952 459 
9.17445 33719844.34 3130301.745 439 
9.18615 33739739.69 3283175.046 432 
9.19785 41515869 3965418.503 444 
9.20955 30688028.43 2981990.901 400 
9.22125 32909936.98 2756152.405 460 
9.23295 31831627.96 3380292.289 388 
9.24465 32058485.74 3255255.155 397 
9.25635 29864048.27 2901147.599 383 
9.26805 31013396.76 3023564.552 399 
9.27975 29149664.89 3109477.302 363 
9.29145 26512777.07 2652165.974 348 
9.30315 31280229.47 3163315.761 403 
9.31485 30433103.96 3182373.581 368 
9.32655 26951098.14 2548439.465 353 
9.33825 29055920.35 2678442.554 391 
9.34995 31322364.62 3170077.821 351 
9.36165 28650741.22 3115089.629 348 
9.37335 36783000.55 3741967.841 354 
9.38505 32413241.14 3414214.897 347 
9.39675 23740075.09 2574812.017 313 
9.40845 32076519.48 3242546.489 346 
9.42015 29531560.64 2904749.387 357 
9.43185 23413067.63 2214907.709 336 
9.44355 22280555.52 2489469.792 307 
9.45525 26405276.29 2892377.948 321 
9.46695 26624971.25 3131944.47 295 
9.47865 26624767.77 2912155.646 318 
9.49035 29565568.99 3164927.087 328 
9.50205 24506973.29 2857016.357 301 
9.51375 24844652.1 2550921.226 315 
9.52545 26875268.19 3057870.543 302 
9.53715 25840093.46 2981241.897 322 
9.54885 23518939.25 2464887.185 303 
9.56055 23505650.43 2773813.642 289 
9.57225 25904037.06 2562733.313 317 
9.58395 24162044.13 2403248.584 321 
9.59565 23465588.48 2769780.986 312 
9.60735 28255915.71 3365016.757 293 
9.61905 23579977.64 2651668.772 292 
9.63075 23261301.05 2523902.717 299 
9.64245 22338953.3 2268135.648 297 
9.65415 29414761.18 3010168.043 360 
9.66585 22953163.93 2420790.894 324 
9.67755 21561046.29 2185118.052 306 
9.68925 21648893.94 2129611.45 317 
9.70095 24964572.5 2526879.934 302 
9.71265 21879722.62 2740328.168 285 
9.72435 23102996.24 2483678.691 300 
9.73605 26218320.79 2824511.708 298 
9.74775 28598504.87 3239053.523 324 
9.75945 22047839.85 2568219.543 259 
9.77115 25831588.92 2977166.866 283 
9.78285 21117261.76 2304191.169 294 
9.79455 23563844.24 2874948.711 267 
9.80625 25510075.51 2760797.716 312 
9.81795 29158916.64 3489516.51 300 
9.82965 22260711.2 2630023.291 278 
9.84135 25314033.3 2837710.269 284 
9.85305 23267999.78 2889655.328 288 
9.86475 22026905.2 2231550.213 295 
9.87645 24523864.31 2763399.205 281 
9.88815 26665361.52 2830237.048 301 
9.89985 24153492.39 2660031.216 301 
9.91155 27434019.92 2843875.917 348 
9.92325 22492746.88 2711862.566 278 
9.93495 25967882.98 3077259.542 285 
9.94665 25837152.74 2906023.338 295 
9.95835 21221088.6 2542466.622 275 
9.97005 28541632.01 3175358.977 312 
9.98175 22021229.99 2581920.789 288 
9.99345 24428773.01 2666718.104 288 
10.00515 20102693.46 2392857.186 275 
10.01685 20628186.26 2350151.263 280 
10.02855 20886462.34 2478122.198 271 
10.04025 23076095.4 2647471.749 267 
10.05195 25977491.17 2644935.342 304 
10.06365 22052249.99 2625884.255 264 
10.07535 21160489.96 2686394.741 250 
10.08705 19021676.75 2583718.461 238 
10.09875 21691686.23 2435321.144 260 
10.11045 25263621.42 3157249.142 283 
10.12215 19389324.73 2121283.396 266 
10.13385 24929331.68 3203182.848 263 
10.14555 23811519.17 3146105.61 247 
10.15725 23951245.09 3050054.74 244 
10.16895 18786244.53 2369910.549 240 
10.18065 20313715.43 2074507.841 287 
10.19235 24100044.55 2766409.503 272 
10.20405 22579684.04 2718045.973 248 
10.21575 16928598.6 2114150.204 229 
10.22745 16230554.63 1997269.011 258 
10.23915 18948566.83 2448824.226 230 
10.25085 24863659.86 3046794.357 244 
10.26255 16737890.24 2285891.366 225 
10.27425 23454948.66 2617484.842 256 
10.28595 22023851.98 2509874.979 258 
10.29765 20598968.47 2247186.599 253 
10.30935 17380511.85 2406540.549 239 
10.32105 21593022.77 2609569.821 258 
10.33275 19182800.48 2266996.001 252 
10.34445 21289433.79 2464969.385 253 
10.35615 20153485.82 2662160.454 230 
10.36785 25280168.02 3208897.034 260 
10.37955 20489202.63 2475098.228 234 
10.39125 25316529.22 3267625.993 238 
10.40295 21335419.83 2691216.794 250 
10.41465 17810424.64 2190046.621 242 
10.42635 16729209.96 2246680.8 213 
10.43805 19441628.59 2426574.491 251 
10.44975 25295431.07 2833226.81 256 
10.46145 20600527.01 2904222.418 224 
10.47315 17406057.8 2469250.378 221 
10.48485 18510407.24 2435780.007 236 
10.49655 17112222.75 2267755.77 228 
10.50825 14270130.44 1715376.776 212 
10.51995 13382377.11 1616319.246 209 
10.53165 16204277.59 1977498.188 220 
10.54335 19171766.97 2404555.565 243 
10.55505 15516274 2084294.773 195 
10.56675 26661303.53 3118353.842 263 
10.57845 20389426.63 2777712.369 231 
10.59015 20538665.43 2754761.67 222 
10.60185 17136048.04 2109451.55 226 
10.61355 13740379.71 1965197.61 188 
10.62525 16260147.75 2203932.94 219 
10.63695 16432915.02 2382439.952 206 
10.64865 16998687.4 2514617.307 197 
10.66035 16848581.8 2519430.731 206 
10.67205 16320542.74 2303683.465 169 
10.68375 21046272.78 2966851.882 211 
10.69545 18263161.89 2314783.71 216 
10.70715 16448462.26 2056418.019 199 
10.71885 16250131.12 2326781.377 216 
10.73055 16855058.39 2189142.044 184 
10.74225 14891894.1 2030410.597 205 
10.75395 14575639.16 1971670.822 200 
10.76565 19049604.47 2332445.059 237 
10.77735 16981683.98 2543676.765 192 
10.78905 15513944.26 2034028.476 190 
10.80075 15642063.13 2311195.706 191 
10.81245 15469320.72 2238670.214 162 
10.82415 17223750.37 2478500.27 191 
10.83585 11435976.96 1840421.001 165 
10.84755 15282629.48 1898486.083 201 
10.85925 16244854.51 2152674.961 183 
10.87095 13561356.49 1865456.443 168 
10.88265 15234208.94 1862063.188 200 
10.89435 13541219.64 2131311.734 160 
10.90605 10732969.33 1281421.959 191 
10.91775 14308902.26 2101679.385 176 
10.92945 14539688.64 2427587.873 153 
10.94115 14605418.92 1790931.068 192 
10.95285 14204466.61 1889286.077 179 
10.96455 15170064.27 2119129.901 178 
10.97625 12475254.3 1894675.497 160 
10.98795 18227047.43 2374508.209 208 
10.99965 15787576.95 2122758.69 176 
11.01135 15258796.69 2315251.56 169 
11.02305 15085839.25 2206872.922 162 
11.03475 12963569.49 1971752.377 160 
11.04645 13835864.56 2109812.453 163 
11.05815 12119626.5 1897394.902 155 
11.06985 12892348.44 2132749.534 163 
11.08155 12695496.26 2148929.555 162 
11.09325 15455239.67 2304795.164 173 
11.10495 11960651.14 1648749.843 176 
11.11665 11682629.71 1716150.923 162 
11.12835 10986709.96 1630682.441 151 
11.14005 12489030.68 1760770.941 161 
11.15175 13758093.85 2302957.236 149 
11.16345 14305519.07 2158784.929 164 
11.17515 12918692.35 1909083.695 173 
11.18685 10192637.75 1574615.717 145 
11.19855 14569390.77 2159545.607 154 
11.21025 9084988.622 1363099.502 140 
11.22195 13445555.25 2265333.381 145 
11.23365 12682983.62 2022602.491 139 
11.24535 15742247.04 2432240.381 173 
11.25705 13114719.2 2090080.505 161 
11.26875 14642941.81 2249783.658 150 
11.28045 8527405.459 1636709.408 123 
11.29215 13726838.52 2191162.746 157 
11.30385 12603571.81 2073032.905 140 
11.31555 12399805.8 1953036.831 142 
11.32725 12709609.36 2003243.419 145 
11.33895 9891005.155 1557506.71 143 
11.35065 14502867.8 2331835.072 148 
11.36235 13190556.31 2046757.349 159 
11.37405 13493043.27 2095067.43 142 
11.38575 11357775.8 2068559.076 123 
11.39745 12895025.25 2072807.702 160 
11.40915 10052423.82 1444072.123 140 
11.42085 10507739.7 1504873.263 150 
11.43255 12723481.6 2211381.492 135 
11.44425 14264524.06 2400460.456 156 
11.45595 13223021.87 2068890.142 151 
11.46765 10832510.14 1753407.906 143 
11.47935 12165298.49 1911056.553 165 
11.49105 12974557.72 2051887.603 150 
11.50275 10485059.66 1458107.052 138 
11.51445 8634924.219 1475389.75 132 
11.52615 13083133.62 2119423.88 127 
11.53785 11411494.83 1780894.541 134 
11.54955 10851860.04 1572110.625 131 
11.56125 11163422.35 1739883.158 132 
11.57295 10953593.31 1932583.444 124 
11.58465 9513135.905 1935296.911 125 
11.59635 8351044.319 1284035.885 129 
11.60805 8329450.276 1476384.953 132 
11.61975 11308577.47 1957780.268 125 
11.63145 10046844.16 1687123.332 128 
11.64315 9970214.071 1562433.305 137 
11.65485 10949014.84 1982921.952 128 
11.66655 12667470.16 2325485.499 124 
11.67825 9063641.973 1608897.513 111 
11.68995 11768833.58 2018471.172 142 
11.70165 9542167.556 1533947.691 124 
11.71335 8064787.993 1302917.104 124 
11.72505 11996340.2 2056889.997 117 
11.73675 11644672.86 1805366.731 138 
11.74845 9563010.586 1705181.376 122 
11.76015 9138547.423 1557657.46 112 
11.77185 9675181.454 1594522.468 122 
11.78355 8794630.137 1454100.844 121 
11.79525 12381842.74 2203280.198 128 
11.80695 11120721.04 2003999.568 137 
11.81865 8059144.633 1408277.736 103 
11.83035 11948345.43 2105404.201 119 
11.84205 10350756.77 2063034.449 105 
11.85375 7760032.273 1342716.565 110 
11.86545 10032819.09 1803094.524 130 
11.87715 7837415.877 1442142.304 108 
11.88885 11381144.32 2099862.606 119 
11.90055 12131283.63 2128011.527 128 
11.91225 10161611.17 1863302.528 118 
11.92395 12118104.44 1931938.35 146 
11.93565 5449321.289 818453.1131 104 
11.94735 11478756.49 2005199.222 137 
11.95905 8913898.245 1521241.628 114 
11.97075 12105647.18 1812734.792 134 
11.98245 11993033.24 2257389.907 125 
11.99415 7905908.699 1353662.072 106 
