# Format: McCode with text headers
# URL: http://www.mccode.org
# Creator: McStas 2.5 - Feb. 26, 2020
# Instrument: /zhome/89/0/38697/once/McStas-2.5_CPU_MPICC/ISIS_test/ISIS_test.instr
# Ncount: 2500000
# Trace: no
# Gravitation: no
# Seed: 1582959917
# Directory: 1
# Nodes: 4
# Date: Wed Feb 26 19:38:09 2020 (1582742289)
# type: array_1d(1000)
# Source: ISIS_test (/zhome/89/0/38697/once/McStas-2.5_CPU_MPICC/ISIS_test/ISIS_test.instr)
# component: monL
# position: 0 0 0.03
# title: Wavelength [Angs] monitor
# Ncount: 10000000
# filename: LamND.dat
# statistics: X0=1.98548; dX=1.89401;
# signal: Min=7.94502e+06; Max=1.25076e+10; Mean=8.24163e+08;
# values: 8.24163e+11 5.07225e+08 9.99999e+06
# xvar: L
# yvar: (I,I_err)
# xlabel: Wavelength [Angs]
# ylabel: Intensity [n/s/bin]
# xlimits: 0.3 12
# variables: L I I_err N
0.30585 1.246341845e+10 62459692.28 150886 
0.31755 1.250755758e+10 62618201.81 151334 
0.32925 1.191697083e+10 61009617.31 144836 
0.34095 1.168608896e+10 60604448.88 141391 
0.35265 1.115063852e+10 59258014.89 134700 
0.36435 1.083366418e+10 58388439.99 131335 
0.37605 1.060162196e+10 57419348.71 129440 
0.38775 1.027339574e+10 56654130.36 124812 
0.39945 9920126324 55564731.29 120253 
0.41115 9467706672 54167629.87 116557 
0.42285 9362636477 53776898.59 114524 
0.43455 9250387191 53550905.18 112856 
0.44625 9067763692 53005089.22 110168 
0.45795 8699769401 51820224.83 106380 
0.46965 8346451486 51058456.77 101276 
0.48135 8132245672 50132798.56 98937 
0.49305 7956860873 49824926.76 96909 
0.50475 7840432089 49747011.94 94635 
0.51645 7659336587 49085856.2 92658 
0.52815 7247285894 47314792.37 88574 
0.53985 7093898599 47193685.26 85669 
0.55155 7063980687 46788000.84 85551 
0.56325 6995110173 46369033.73 85683 
0.57495 6956455994 46548390.76 84622 
0.58665 6921218987 46560527.28 83436 
0.59835 6815324100 46676309.82 81624 
0.61005 6602505203 45260331.1 79900 
0.62175 6403501357 44452153.46 78004 
0.63345 6375592696 44943627.6 76256 
0.64515 6223957242 44145273.62 75158 
0.65685 5972561316 43431593.95 72567 
0.66855 5887659882 43044292.79 70592 
0.68025 5587083926 41429775.65 68166 
0.69195 5428308978 40839757.86 66304 
0.70365 5298841048 40471371.65 64657 
0.71535 5195372063 39929003.89 63082 
0.72705 5057125167 39584563.74 61219 
0.73875 4902926328 39273295.22 59644 
0.75045 4745925641 38614656.35 57584 
0.76215 4624737912 37971794.21 55645 
0.77385 4447518161 37255670.52 53777 
0.78555 4325638487 36592367.17 52730 
0.79725 4259747055 36569194.42 51487 
0.80895 4142692548 36208553.53 50060 
0.82065 4011542021 35170966.63 48633 
0.83235 3927805537 34928842.81 47707 
0.84405 3711355137 33780319.32 45613 
0.85575 3756936271 34291985.1 45674 
0.86745 3639968330 33793058.59 44297 
0.87915 3578357275 33782922.58 42939 
0.89085 3401774162 32561203.84 41418 
0.90255 3365016624 32669947.86 40257 
0.91425 3189480360 31487921.33 39215 
0.92595 3173445086 31435711.35 38575 
0.93765 3052569847 30471806.5 37316 
0.94935 2957461574 30107503.18 36586 
0.96105 2919790612 29957794.8 35491 
0.97275 2837765052 29390934.87 35095 
0.98445 2793066438 29279091.32 34209 
0.99615 2764321118 29370125.24 33578 
1.00785 2706843361 28685025.79 33341 
1.01955 2696203186 29077070.79 32592 
1.03125 2594555721 28518732.83 31328 
1.04295 2508844748 27836347.59 30408 
1.05465 2484911799 28057546.24 29675 
1.06635 2504652946 28296985.7 29685 
1.07805 2359596846 26926722.65 29163 
1.08975 2329915441 26797907.77 28520 
1.10145 2287235965 26653861.82 28077 
1.11315 2233945051 26594548.34 27128 
1.12485 2232102280 26751134.72 26523 
1.13655 2190452495 26071044.33 26426 
1.14825 2136422398 25833051.54 26046 
1.15995 2082292696 25164327.02 25525 
1.17165 2132076016 26206557 25457 
1.18335 2074619336 25255784.21 25186 
1.19505 2039331779 25510212.1 24719 
1.20675 1961164913 24577406.34 24241 
1.21845 1973924632 24935864.17 23850 
1.23015 1977758289 25202281.1 23475 
1.24185 1906377208 24403559.96 22990 
1.25355 1850987653 23704227.71 22859 
1.26525 1871796929 24249632.8 22463 
1.27695 1832684964 23884762.18 22285 
1.28865 1776587174 23531309.07 21571 
1.30035 1787797335 23915814.54 21502 
1.31205 1727325735 23509471.77 20860 
1.32375 1719330483 23307986.38 20713 
1.33545 1705969302 23100888.77 20710 
1.34715 1704540738 23114752.92 20650 
1.35885 1680252906 22946319.85 20325 
1.37055 1656693829 22885206.66 19774 
1.38225 1587250233 22294371.17 19278 
1.39395 1530366074 21724235.39 18653 
1.40565 1524831133 21722677.06 18586 
1.41735 1548494719 22058523.3 18608 
1.42905 1521230189 21585172.04 18710 
1.44075 1533438881 22012806.42 18563 
1.45245 1462901267 20971327.77 18307 
1.46415 1466842492 21440562.35 17773 
1.47585 1430656536 21104258.45 17459 
1.48755 1448663439 21478047.92 17319 
1.49925 1438505847 21161660.72 17379 
1.51095 1414160922 21218264.68 16996 
1.52265 1441485167 21635453.74 17055 
1.53435 1403101305 20842611.06 16998 
1.54605 1409650785 21043789.69 16885 
1.55775 1357355060 20417245.84 16873 
1.56945 1372073069 20776042.95 16424 
1.58115 1324073062 20287662.76 16164 
1.59285 1360582139 20752195.79 16315 
1.60455 1326820363 20514368.04 15972 
1.61625 1309104329 20331858.46 15805 
1.62795 1286640011 19910884.07 15622 
1.63965 1315597370 20547381.67 15618 
1.65135 1281823838 19920228.21 15560 
1.66305 1235009230 19317306.7 15275 
1.67475 1242408242 19661996.35 15105 
1.68645 1226988093 19368158.4 15061 
1.69815 1219822819 19305709.5 14808 
1.70985 1223788416 19844530.61 14622 
1.72155 1192417495 19186033.62 14446 
1.73325 1197721156 19349252.78 14441 
1.74495 1148246364 18721885.77 14196 
1.75665 1166111732 18996178.35 14144 
1.76835 1177725702 19513738.29 14028 
1.78005 1136351684 18843146.27 13905 
1.79175 1123948465 18519882.01 13828 
1.80345 1151765511 18786541.68 13998 
1.81515 1151313914 19093058.93 13940 
1.82685 1121501519 18749400.93 13730 
1.83855 1112682723 18659829.34 13516 
1.85025 1108689609 18590414.77 13535 
1.86195 1104021075 18820718.47 13341 
1.87365 1081979258 18233760.87 13221 
1.88535 1104766659 18397854.27 13398 
1.89705 1116295191 18868260.06 13296 
1.90875 1079921410 18391037.63 13180 
1.92045 1068207231 18257752.75 13048 
1.93215 1078971350 18531154.87 13024 
1.94385 1098905842 18708849.54 13192 
1.95555 1101323418 18709234.35 13106 
1.96725 1069033963 18321320.32 13017 
1.97895 1092884463 18463549.58 13083 
1.99065 1058506697 18072773.66 12846 
2.00235 1065415033 17967480.56 12870 
2.01405 1067015557 18200452.08 12877 
2.02575 1044039788 17950941.9 12798 
2.03745 1037063978 17914418.81 12865 
2.04915 1027092268 17464514.25 12829 
2.06085 1059737802 18616309.68 12705 
2.07255 1045664421 17785706.18 12819 
2.08425 1059119884 18422860.94 12674 
2.09595 1064010844 18102318.47 12690 
2.10765 1057159720 17931562.82 12882 
2.11935 1051589778 18349372.46 12720 
2.13105 1024506416 17704231.09 12667 
2.14275 1051308912 18320420.23 12660 
2.15445 1046393999 18154713.69 12671 
2.16615 1041618109 17925860.06 12770 
2.17785 1041538972 18249359.41 12533 
2.18955 1042627980 18007994.81 12557 
2.20125 1046266434 18296850.1 12675 
2.21295 1060189594 18328521.21 12748 
2.22465 1083153178 18479330.68 12959 
2.23635 1061579362 18454057.9 12969 
2.24805 1073719302 18368918.58 13047 
2.25975 1055037012 18055190.61 12973 
2.27145 1073735299 18303593.37 13044 
2.28315 1103312421 18951092.87 12979 
2.29485 1054382122 18212421.94 12941 
2.30655 1052199475 18009589.96 12785 
2.31825 1081978701 18798027.73 12902 
2.32995 1073054605 18349416.44 12811 
2.34165 1055105966 18308870.74 12821 
2.35335 1070556002 18545011.11 12873 
2.36505 1053408015 17986494.69 12952 
2.37675 1059647471 18416943.44 12796 
2.38845 1066041372 18052479.51 13000 
2.40015 1098690970 18873648.21 13051 
2.41185 1060402457 17895286.01 13170 
2.42355 1084359584 18668225.73 12951 
2.43525 1106103848 18677772.1 13174 
2.44695 1069861420 18153186.48 13038 
2.45865 1069537124 18394894.59 13010 
2.47035 1061387574 18242961.49 13018 
2.48205 1123163292 18923041.07 13355 
2.49375 1066004689 17854265.08 13064 
2.50545 1090822544 18639052.04 13122 
2.51715 1069002809 18170333.53 13226 
2.52885 1108057040 18908634.75 13307 
2.54055 1132841441 18964846.51 13551 
2.55225 1106075787 18542043.15 13432 
2.56395 1105639146 18427181.89 13524 
2.57565 1141761514 19055871.99 13651 
2.58735 1137370555 19113719.47 13773 
2.59905 1103179599 18421159.09 13642 
2.61075 1084027518 17932625.33 13658 
2.62245 1115225289 18800382.84 13390 
2.63415 1124852423 18575498.75 13705 
2.64585 1126240550 18510270.27 13830 
2.65755 1092985417 18242715.96 13487 
2.66925 1128796720 18771634.77 13601 
2.68095 1141296526 18869255.58 13697 
2.69265 1128267806 18690123.11 13744 
2.70435 1136396176 19067507.9 13599 
2.71605 1116782115 18963623.87 13524 
2.72775 1113258736 18567831.11 13629 
2.73945 1082242540 17898050.98 13595 
2.75115 1115693909 18509613.1 13730 
2.76285 1141509510 19076085.81 13567 
2.77455 1121244568 18550968.89 13697 
2.78625 1166240838 18940730.76 14067 
2.79795 1154475588 18863005.74 14029 
2.80965 1184960578 19408706.7 14323 
2.82135 1152512839 18538037.76 14201 
2.83305 1120357139 18433670.5 14153 
2.84475 1195264770 19558892.97 14330 
2.85645 1149392271 18746368.29 14024 
2.86815 1145014874 19097239.09 13789 
2.87985 1143889218 18793308.44 14081 
2.89155 1163958685 18983708.28 14162 
2.90325 1109549582 18087674.53 13882 
2.91495 1160254517 18879996.59 13946 
2.92665 1155991750 19208868.28 13923 
2.93835 1151773376 18951616.79 13972 
2.95005 1142717232 18755371.58 13854 
2.96175 1168727977 19270278.14 14033 
2.97345 1164821398 19235826.59 14002 
2.98515 1172822720 19206009.04 14184 
2.99685 1187890955 19525509.51 14237 
3.00855 1199554685 19794069.84 14132 
3.02025 1208538690 19469895.01 14389 
3.03195 1181147356 19063978.73 14406 
3.04365 1155918633 18952117.06 14250 
3.05535 1165060285 18862406.2 14278 
3.06705 1170490713 18970889.61 14239 
3.07875 1155071467 18781382.59 14202 
3.09045 1175786728 19131581.24 14380 
3.10215 1175276023 19313786.5 14174 
3.11385 1222106927 19860884 14257 
3.12555 1191772937 19200813.75 14415 
3.13725 1189093613 19149053.86 14348 
3.14895 1185033565 19429824.14 14341 
3.16065 1215509403 19798638.7 14358 
3.17235 1137960547 18629900.35 14084 
3.18405 1144031885 18578300.98 14209 
3.19575 1170720479 19275783.49 14069 
3.20745 1125329360 18601343.7 13782 
3.21915 1144910228 19075093.69 13882 
3.23085 1169209383 19395260.95 13998 
3.24255 1118212153 18381629.95 13885 
3.25425 1151150407 19260461.88 13833 
3.26595 1151998943 19055850.25 13834 
3.27765 1148801929 18969589.07 13860 
3.28935 1138338252 18709727.85 13834 
3.30105 1141948398 18855889.9 13777 
3.31275 1109060405 18408548.55 13564 
3.32445 1121304616 18397991.65 13697 
3.33615 1120814165 18536820.35 13681 
3.34785 1126467282 18754196.31 13554 
3.35955 1103081905 18588159.03 13485 
3.37125 1080184161 18205265.87 13357 
3.38295 1056221182 17840782.02 13229 
3.39465 1115774220 18690162.01 13372 
3.40635 1126402696 18715361.58 13553 
3.41805 1076142343 17854084.82 13345 
3.42975 1086029247 18465496.71 13338 
3.44145 1077565306 18097369.65 13447 
3.45315 1087573281 18272587.71 13171 
3.46485 1093518511 18797774.52 13126 
3.47655 1080460052 18678960.07 12930 
3.48825 1079927856 18429884.68 12984 
3.49995 1047444102 17865582.11 12844 
3.51165 1039680604 17941962.56 12724 
3.52335 1007106129 17238031.89 12577 
3.53505 1059817413 18201731.82 12690 
3.54675 1057786074 18197819.08 12621 
3.55845 1056470413 18386755.99 12619 
3.57015 1030994807 18177773.43 12512 
3.58185 1049196993 18472744.32 12384 
3.59355 1061370537 18201624.27 12808 
3.60525 1019825402 17910516.07 12431 
3.61695 1044537170 18066430.32 12544 
3.62865 1037438798 18431280.53 12324 
3.64035 993860084.7 17234653.51 12324 
3.65205 988174903.3 17469024.13 12114 
3.66375 997494979.9 17727642.35 12022 
3.67545 1021839355 18035708.2 12194 
3.68715 1020151580 17977248.45 12234 
3.69885 992631594.3 17884405.91 11732 
3.71055 969527251.5 17251988.26 11927 
3.72225 975269345.5 17477160.16 11782 
3.73395 973565786.6 17561098.57 11555 
3.74565 989114101.7 17457867.15 11904 
3.75735 935971009.4 17054686.34 11322 
3.76905 919448885.5 16526739.12 11422 
3.78075 937185044.7 16696190.63 11636 
3.79245 957796965 17233031.79 11556 
3.80415 966099050.4 17674130 11360 
3.81585 947785084.7 17447417.11 11412 
3.82755 944202025 17347798.16 11283 
3.83925 897102639.5 16527006.71 10983 
3.85095 932994262.5 17072344.55 11205 
3.86265 908545450.3 16955861.14 11056 
3.87435 918036615.6 17271766.54 10989 
3.88605 878633604.4 16434390.29 10880 
3.89775 881566844 16430829.48 10851 
3.90945 918926226.3 17161863.04 10815 
3.92115 870927941.7 16415892.96 10656 
3.93285 878158113.6 16484514.39 10685 
3.94455 871934550 16658634.79 10638 
3.95625 882690249.4 16465429.21 10668 
3.96795 889410587.9 16812360.19 10640 
3.97965 879680858 16916833.44 10404 
3.99135 859791573 16335129.81 10461 
4.00305 864940468 16520520.47 10493 
4.01475 865847763.7 16268268.94 10394 
4.02645 845464002.1 16161036.3 10148 
4.03815 832849689.9 16008809.81 10168 
4.04985 863194464.4 16613571.03 10195 
4.06155 829553117.5 15962346.32 10191 
4.07325 840350846.1 16386849.74 10069 
4.08495 819766988.4 16000310.17 9864 
4.09665 817296766.2 15875094.98 9909 
4.10835 815075852.2 16082816.39 9900 
4.12005 816181211.9 15955101.29 9908 
4.13175 830367079.4 16351357.96 9940 
4.14345 780491618.7 15515879.06 9554 
4.15515 797157541.2 15430333.3 9754 
4.16685 763049785.7 15170204.14 9425 
4.17855 774315438.8 15576271.01 9405 
4.19025 776575269.5 15879371.46 9300 
4.20195 744472724.7 14885784.56 9220 
4.21365 740044917.3 14985680.2 9149 
4.22535 767288809.5 15874185.34 9062 
4.23705 757702826.4 15387214.92 9138 
4.24875 751151128.8 15412994.9 9045 
4.26045 744637658.3 15382026.79 8927 
4.27215 739544943.1 15450432.08 9047 
4.28385 719865608.8 14802889.02 8817 
4.29555 693476608.5 14221519.98 8788 
4.30725 736147650.6 15185797.63 8847 
4.31895 740557300.7 15108539.63 8974 
4.33065 732840925.1 15250350.6 8792 
4.34235 732840739.9 14935187.47 8938 
4.35405 740875770.6 15519196.94 8766 
4.36575 712479738.8 14921918.27 8711 
4.37745 701732348 14862088.26 8647 
4.38915 690256962.9 14551521.61 8403 
4.40085 690056093.7 14583661.52 8372 
4.41255 699255187.8 14859969.89 8348 
4.42425 697457740.2 14716789.89 8647 
4.43595 718257105.2 15214579.85 8458 
4.44765 670980749.4 14506179.9 8148 
4.45935 683919603.2 14751309.51 8355 
4.47105 685633620.3 14819686.15 8146 
4.48275 657391542.2 13938039.24 8125 
4.49445 673120342.5 14622137.33 8091 
4.50615 651486798 14250366.43 7938 
4.51785 658785304.7 14182862.7 7964 
4.52955 662752822.9 14284889.67 7955 
4.54125 648619874.4 14188188.63 7819 
4.55295 650472016.2 14504723.47 7674 
4.56465 617922449.8 13598484.74 7641 
4.57635 628887837 14074704.08 7578 
4.58805 597718749.7 13579564.37 7308 
4.59975 601394972.9 13452929.27 7423 
4.61145 608869687.6 13808865.38 7388 
4.62315 611485511.9 13923840.01 7283 
4.63485 592115318 13387220.32 7179 
4.64655 576098840.5 13207538.79 7167 
4.65825 586406992.1 13430749.55 7078 
4.66995 596756016.5 14082980.93 7021 
4.68165 571272608.9 13330422.29 6905 
4.69335 578846634.2 13451484.86 7047 
4.70505 554865580 13209115 6809 
4.71675 555800869.2 12871569.88 6788 
4.72845 551767740.4 13263517.51 6746 
4.74015 535152920.8 12890277.85 6681 
4.75185 548880785.6 13310252.07 6654 
4.76355 546807843.3 13120393.94 6662 
4.77525 555958328.6 13325607.36 6672 
4.78695 558379438 13246777.48 6710 
4.79865 550763447.7 12966044.25 6810 
4.81035 531663901.6 12890974.22 6555 
4.82205 561483206.9 13092735.06 6661 
4.83375 513231953.8 12633479.84 6366 
4.84545 545976745.2 13343423.91 6457 
4.85715 531903644.4 13018811.43 6497 
4.86885 507868242.5 12497265.45 6239 
4.88055 494628674 12345969.3 6089 
4.89225 510529661.9 12597953.91 6183 
4.90395 518951671.6 12943327.6 6199 
4.91565 491585719 12358079.52 5939 
4.92735 485875263 12254727.24 5922 
4.93905 497188105.5 12479273.12 5929 
4.95075 461288486.5 11979022.74 5796 
4.96245 474978529.4 12127688.79 5760 
4.97415 469928773.8 11994933.04 5767 
4.98585 477701699.3 12495598.24 5762 
4.99755 472830198.7 12411596.84 5722 
5.00925 466669675.2 11948159.94 5628 
5.02095 442841750.7 11566018.46 5461 
5.03265 462565530.2 12105883.81 5542 
5.04435 435671516.1 11409774.18 5479 
5.05605 455990933.3 12118782.39 5494 
5.06775 463483490.7 11982019.54 5586 
5.07945 432578700.7 11353119.09 5380 
5.09115 438524176.2 11396055.35 5403 
5.10285 471937774.6 12274747.69 5497 
5.11455 441024134.6 11734002.26 5415 
5.12625 463881418.9 12518531.82 5407 
5.13795 450576696.1 11985174.2 5401 
5.14965 431474078.6 11461932.99 5297 
5.16135 436173267.9 11615383.82 5384 
5.17305 432292911.6 11579535.95 5255 
5.18475 437832630.2 11770698 5163 
5.19645 422869123.1 11197049.18 5273 
5.20815 422468620.4 11162702.6 5137 
5.21985 421058414.1 11359272.45 5181 
5.23155 410925741.7 11258826.57 5129 
5.24325 418961112.8 11398035.01 5034 
5.25495 416250710.5 11779593.24 4858 
5.26665 412720489.8 11747801.11 4863 
5.27835 388169996.4 10780363.2 4922 
5.29005 401643757.4 11149300.79 4905 
5.30175 409245245.6 11507118.95 4850 
5.31345 385457254.3 11022118.45 4750 
5.32515 410445551.4 11471129.68 4763 
5.33685 375232066.2 10708001.64 4612 
5.34855 380287848.1 10669306.85 4683 
5.36025 406198683.2 11647730.84 4662 
5.37195 386721492.9 11269599.71 4530 
5.38365 354250625.4 10373249.07 4473 
5.39535 380981829.6 10939873.75 4578 
5.40705 352501202.4 10384071.93 4444 
5.41875 348187562.4 10599749.71 4282 
5.43045 351384912.4 10285133.06 4387 
5.44215 354418943.7 10708003.55 4269 
5.45385 362988162.5 11082806.79 4208 
5.46555 346340776.2 10171142.91 4274 
5.47725 359445493.7 10486509.56 4358 
5.48895 339167545.4 10182727.59 4197 
5.50065 347499692.1 10361651.3 4063 
5.51235 342026661 10334690.18 4189 
5.52405 330335011.7 9738487.509 4126 
5.53575 339901388.6 10424996.77 4124 
5.54745 338305687.6 10277778.13 4073 
5.55915 356109621.2 10546901.46 4111 
5.57085 327974940.4 9956975.98 4079 
5.58255 333211527.1 10337260.57 3953 
5.59425 323191857.9 9706210.265 3995 
5.60595 324069520 10078713.55 3949 
5.61765 331297993.6 10296743.11 3913 
5.62935 322659115.9 9956862.554 3973 
5.64105 310486626.5 9874624.382 3826 
5.65275 326921525.3 10297123.99 3882 
5.66445 322876126.9 10126290.94 3905 
5.67615 316521201.3 10027844.04 3812 
5.68785 330543153.2 10336075.22 3927 
5.69955 292612869.6 9119012.697 3767 
5.71125 307519722.2 9917635.81 3757 
5.72295 312545862.5 10110777.02 3672 
5.73465 279628642.9 9186553.847 3556 
5.74635 289915434.2 9552489.299 3613 
5.75805 295234157.3 9390768.862 3640 
5.76975 282366177.1 9337012.796 3500 
5.78145 298828248.6 9992961.743 3564 
5.79315 285519870.5 9398430.005 3543 
5.80485 283596239.9 9481805.752 3392 
5.81655 278438270 9187708.953 3463 
5.82825 290728808.9 9449321.239 3475 
5.83995 293748814.5 10077048.88 3299 
5.85165 272539415.2 9055720.101 3398 
5.86335 258024246.2 8668071.53 3337 
5.87505 253504787.3 8837346.568 3257 
5.88675 271788452.8 9282215.318 3274 
5.89845 256712400.9 9176478.287 3202 
5.91015 260411980.3 9008408.874 3153 
5.92185 289320948.5 10061901.37 3258 
5.93355 258429474.7 8947334.674 3168 
5.94525 256402006.9 9082681.856 3107 
5.95695 245260648.5 8548136.264 3047 
5.96865 267375460.6 9539475.555 3146 
5.98035 258759298.2 9053638.181 3041 
5.99205 258476644.8 9131364.607 3148 
6.00375 237114840.3 8330626.953 2980 
6.01545 249156988.6 8573948.361 3071 
6.02715 240094303.4 8382679.467 2985 
6.03885 249842465.6 8985588.471 2960 
6.05055 244825995.2 8739329.665 2935 
6.06225 235731752.3 8455709.148 2940 
6.07395 249811655.2 8956759.784 2948 
6.08565 239656510.8 8902628.873 2880 
6.09735 242858626 8977676.545 2862 
6.10905 234753204.6 8747964.552 2875 
6.12075 229589444.7 8479792.347 2793 
6.13245 220783950.6 8339094.924 2694 
6.14415 232573316.6 8560104.407 2701 
6.15585 231176750.1 8384603.528 2793 
6.16755 228143440.8 8617006.704 2694 
6.17925 225339797.7 8469080.621 2783 
6.19095 219760053.4 8268743.894 2645 
6.20265 223808228.7 8503644.433 2732 
6.21435 224315971.7 8565229.755 2614 
6.22605 219199864.5 8176052.174 2643 
6.23775 224550649.7 8635684.243 2649 
6.24945 221396255 8319193.3 2668 
6.26115 203185004.9 7421729.484 2588 
6.27285 217065416 8464475.386 2551 
6.28455 204112978.8 7879799.353 2501 
6.29625 214585376.7 8618386.565 2451 
6.30795 193704281.4 7757757.343 2388 
6.31965 226042417.3 8690726.48 2570 
6.33135 185954099.6 7405450.238 2450 
6.34305 204244676.2 7979340.09 2467 
6.35475 196850347.7 7690419.796 2397 
6.36645 203619524.1 8044441.675 2545 
6.37815 192123422.8 7610346.27 2365 
6.38985 191894039.8 7697054.788 2348 
6.40155 193391473 7807017.45 2334 
6.41325 176437093.3 7028993.371 2277 
6.42495 188340950 7535645.847 2303 
6.43665 189110937 7654163.693 2279 
6.44835 184944100.3 7598670.157 2288 
6.46005 189568623.4 8018248.346 2203 
6.47175 186202959.6 7867163.015 2246 
6.48345 189185756.7 8055414.651 2184 
6.49515 174599761.1 7165953.682 2221 
6.50685 173831267.9 7324985.841 2149 
6.51855 165310072.2 6836023.747 2157 
6.53025 177625970.2 7607850.436 2077 
6.54195 168453605.9 7233495.663 2118 
6.55365 192050828.8 8195036.724 2192 
6.56535 172204786.6 7136133.923 2070 
6.57705 161672896.8 7084832.299 2035 
6.58875 158164264.3 7136467.297 1971 
6.60045 166367311.7 6976113.366 2069 
6.61215 165954428.2 7327951.265 1989 
6.62385 162396871.2 7284357.991 1956 
6.63555 164066938.9 7088485.705 1993 
6.64725 164896227.5 7291824.735 1975 
6.65895 164801129.1 7470540.562 1929 
6.67065 160793820.5 6995199.159 1950 
6.68235 167000320.4 7250940.851 1968 
6.69405 161780551.8 6962801.763 1935 
6.70575 156976653.7 6965101.724 1915 
6.71745 157163345.6 7203124.222 1867 
6.72915 157618659.6 7355090.028 1819 
6.74085 163128463.1 7156998.516 1923 
6.75255 139129980.4 6430365.012 1801 
6.76425 150924327.6 6801873.895 1840 
6.77595 160276541.3 7188612.491 1896 
6.78765 156239538.8 7021111.002 1899 
6.79935 143809566.3 6573049.263 1790 
6.81105 156749862.4 7168151.143 1827 
6.82275 146582967.5 6305517.562 1831 
6.83445 142436370.3 6739981.244 1805 
6.84615 167280648.2 7472609.093 1877 
6.85785 140360644.4 6557785.637 1806 
6.86955 145415317.1 6751135.675 1780 
6.88125 153136632.4 7206051.933 1764 
6.89295 143577285 6668729.36 1731 
6.90465 145530701.9 6951797.203 1727 
6.91635 144822232.2 6831486.427 1727 
6.92805 136373840.4 6345143.344 1730 
6.93975 141406836.9 6608298.073 1693 
6.95145 142920969.7 6804401.036 1728 
6.96315 133655099.9 6172585.79 1667 
6.97485 143797150.7 6768034.635 1732 
6.98655 141743563.2 6901588.441 1679 
6.99825 118252999.3 5818143.442 1546 
7.00995 130957566 6463502.257 1581 
7.02165 130330788.6 6136975.01 1628 
7.03335 133472929.1 6493098.595 1608 
7.04505 110003053.6 5112750.604 1570 
7.05675 118677360.4 5677019.194 1544 
7.06845 122369794.9 5746621.06 1523 
7.08015 131272780.3 6289635.577 1566 
7.09185 127713307.1 6506807.551 1560 
7.10355 113894448.7 5461328.05 1478 
7.11525 113515629.9 5748793.712 1503 
7.12695 119663054 6338682.349 1447 
7.13865 117339628.2 5875142.978 1480 
7.15035 124641385.9 6376460.644 1466 
7.16205 122507914.5 6355985.025 1444 
7.17375 118038891 6098425.714 1429 
7.18545 113563435.1 5576726.287 1438 
7.19715 115534716.3 5649582.342 1495 
7.20885 111768083.4 5642660.639 1454 
7.22055 114675121.5 6116592.847 1385 
7.23225 117825145.5 6121751.435 1370 
7.24395 102032858 5062611.004 1412 
7.25565 114388635 6079050.312 1338 
7.26735 107862617.9 5972469.576 1343 
7.27905 106085923.3 5484536.331 1329 
7.29075 117608778.4 6214730.913 1380 
7.30245 106525447.3 5927613.345 1255 
7.31415 118483401.3 6449117.07 1301 
7.32585 112545375.2 6143829.511 1283 
7.33755 108001192.6 5883325.02 1314 
7.34925 96769414.4 5110953.7 1205 
7.36095 112563013.7 5885190.216 1357 
7.37265 107511406.7 5877679.869 1237 
7.38435 113258025.9 6126193.476 1307 
7.39605 103991995.2 5779909.349 1255 
7.40775 105479806.2 5625973.505 1283 
7.41945 100246510.2 5257609.024 1238 
7.43115 102899085 5720515.018 1194 
7.44285 99989388.83 5699414.675 1201 
7.45455 107142168.7 5784835.156 1289 
7.46625 107166287.5 5848755.787 1288 
7.47795 98910056.87 5330735.313 1259 
7.48965 101229366 5567780.087 1196 
7.50135 94175405.95 5330760.575 1226 
7.51305 93937917.77 5172110.917 1233 
7.52475 102531608.1 5652733.776 1210 
7.53645 87647273.6 4895794.1 1145 
7.54815 97502246.51 5450461.681 1200 
7.55985 101369186.4 5845278.775 1194 
7.57155 99640597.81 5660574.256 1165 
7.58325 95427990.14 5732561.358 1120 
7.59495 92591509.9 5384603.592 1167 
7.60665 102877217.7 6164185.603 1125 
7.61835 87609735.48 5307631.373 1055 
7.63005 91375465.35 5656614.002 1104 
7.64175 101618265 6306471.664 1073 
7.65345 96327732.38 5359516.078 1149 
7.66515 84180600.9 5005942.899 1042 
7.67685 93128490.99 5592620.043 1073 
7.68855 89965376.96 5596280.658 1027 
7.70025 84293699.1 5068124.303 1053 
7.71195 90775056.44 5149011.46 1107 
7.72365 82267745.22 5006238.489 1035 
7.73535 80128360.78 5013116.748 992 
7.74705 84667970.64 5570734.495 955 
7.75875 78924234.95 4772230.094 971 
7.77045 83118320.98 5207592.687 999 
7.78215 79695732.35 4986528.306 997 
7.79385 95949582.31 5951246.457 994 
7.80555 76024803.81 4642152.089 965 
7.81725 83576500.28 5029059.912 936 
7.82895 74196352.84 4610063.834 963 
7.84065 80354222.31 5253058.177 951 
7.85235 74144535.94 4556157.451 938 
7.86405 73837545.63 4601066.234 940 
7.87575 81229070.89 5089799.094 982 
7.88745 79788641.83 5099307.621 967 
7.89915 71251431.28 4247747.62 934 
7.91085 73575288.44 4599731.209 932 
7.92255 81057352.92 5096988.364 950 
7.93425 79256937.71 4861081.581 954 
7.94595 75275846.37 5085059.883 885 
7.95765 74086746.02 4739434.938 924 
7.96935 70358563.53 4677145.987 881 
7.98105 75976416.44 4783881.203 907 
7.99275 78753831.77 4960148.396 939 
8.00445 70759110.7 4717833.708 869 
8.01615 69875962.46 4758673.637 882 
8.02785 73517975.13 4821501.627 905 
8.03955 71365204.41 4652488.451 866 
8.05125 71541507.66 4826661.06 877 
8.06295 66079294.99 4485294.869 812 
8.07465 69382307.76 4572325.563 859 
8.08635 78959940.27 5053307.461 868 
8.09805 72072911.31 4718685.772 855 
8.10975 68702567.54 4459414.556 844 
8.12145 74407894.53 5013785.762 842 
8.13315 69274472.96 4472448.782 831 
8.14485 79492277.54 5558062.549 869 
8.15655 73387515.83 5060198.508 821 
8.16825 60640307.64 4133334.061 816 
8.17995 60664021.39 4451229.277 805 
8.19165 66510830.13 4444125.616 824 
8.20335 61508124.95 4220018.383 777 
8.21505 66913701.61 4616342.78 820 
8.22675 70913747.16 4827317.421 807 
8.23845 64059711.87 4381855.539 784 
8.25015 73118250.82 5122840.331 782 
8.26185 73830933.82 5057104.764 787 
8.27355 67321321.92 4617660.11 833 
8.28525 58192639.8 4090572.085 770 
8.29695 61879155.49 4280849.147 770 
8.30865 61492273.01 4391410.533 748 
8.32035 69941240.27 4990795.636 743 
8.33205 59657453.03 4237776.362 754 
8.34375 57399431.89 3881884.713 739 
8.35545 68645884.47 4860366.142 759 
8.36715 60892796.58 4505281.4 731 
8.37885 60704201.44 4312205.696 719 
8.39055 53363770.03 3862437.126 700 
8.40225 57648245.15 4165723.435 734 
8.41395 55479676.15 4132337.892 676 
8.42565 59921583.47 4419512.197 705 
8.43735 58049314.14 4383761.528 693 
8.44905 56617463.87 4144973.353 718 
8.46075 53341663.9 4008021.418 658 
8.47245 57622327.42 4338913.479 693 
8.48415 59934656.7 4482290.831 682 
8.49585 48759018.92 3920209.88 618 
8.50755 55772840.92 4224115.385 649 
8.51925 53935564.48 4079861.511 644 
8.53095 52205364.49 4122472.072 611 
8.54265 46908002.22 3505257.865 637 
8.55435 48200540.3 3376827.651 628 
8.56605 51267336.38 3851230.135 639 
8.57775 54960962.85 4417720.614 617 
8.58945 44348881.63 3557608.701 582 
8.60115 53118768.7 4055238.304 639 
8.61285 51771136.13 3859557.381 661 
8.62455 53318879.62 4094527.116 652 
8.63625 42115506.73 3219919.428 570 
8.64795 54049927.16 4404582.036 621 
8.65965 47986985.57 3579911.268 612 
8.67135 56988351.12 4166882.293 655 
8.68305 57206349.53 4535647.207 660 
8.69475 46532507.53 3449549.122 640 
8.70645 59475855.61 4376146.443 667 
8.71815 52839233.28 3860553.569 634 
8.72985 48296210.35 3515892.495 660 
8.74155 47887631.37 3668007.857 642 
8.75325 52275778.22 4182345.851 658 
8.76495 65136568.42 4523553.284 810 
8.77665 50972317.1 3408942.33 765 
8.78835 67304325.45 4525321.855 798 
8.80005 71298089.55 4913662.013 832 
8.81175 74238040.86 5006119.608 857 
8.82345 77379052.82 5031181.872 912 
8.83515 78886618.1 5039730.533 939 
8.84685 78930411.55 5024235.453 968 
8.85855 80020722.59 4892389.851 980 
8.87025 82732056.82 4785005.207 1017 
8.88195 89570638.3 5456420.837 1092 
8.89365 91609080.85 5272781.083 1088 
8.90535 94256983.83 5476110.484 1121 
8.91705 97196073.26 5408571.962 1200 
8.92875 95357537.58 5040892.835 1231 
8.94045 91093441.52 4946802.098 1160 
8.95215 100086952.7 5417976.719 1217 
8.96385 90188162.19 5547834.589 1080 
8.97555 91549371.33 5405348.673 1089 
8.98725 84532884.75 4992198.629 1060 
8.99895 78361678.02 5123895.594 946 
9.01065 75701441.81 4702523.816 943 
9.02235 77915415.3 5111134.779 891 
9.03405 63207660.42 4555475.998 782 
9.04575 63386993.14 4627569.54 713 
9.05745 53445163.2 4312089.124 603 
9.06915 43294211.65 3682652.869 546 
9.08085 43457567.71 3835886.831 545 
9.09255 45126270.56 3828249.803 542 
9.10425 46856402.95 3918413.731 547 
9.11595 49191029.09 4393024.446 510 
9.12765 34936168.18 3213263.925 477 
9.13935 41496240.98 3740334.757 477 
9.15105 37118119.22 3236734.957 469 
9.16275 39759574.57 3866525.269 429 
9.17445 30615725.22 2549070.775 462 
9.18615 33238288.91 3207465.495 451 
9.19785 38907276.45 3739051.877 435 
9.20955 32877943.09 2943532.107 436 
9.22125 33064899.97 2957453.839 439 
9.23295 40312894.43 3789972.512 439 
9.24465 29477038.66 2755578.508 396 
9.25635 27974643.44 2570887.358 408 
9.26805 31901090.32 2869710.004 425 
9.27975 34774102.19 3221256.674 416 
9.29145 26437884.91 2509622.562 368 
9.30315 29057604.89 2996285.889 361 
9.31485 33269053.39 3484965.382 353 
9.32655 27247817.11 2836800.082 325 
9.33825 29792683.82 2773548.976 376 
9.34995 33359504.72 3227052.637 403 
9.36165 28721099.57 2757860.272 370 
9.37335 32682181.32 3685527.374 328 
9.38505 28526259.74 3092141.375 315 
9.39675 27601384.87 3338219.904 314 
9.40845 28361547.45 3117950.331 350 
9.42015 26274766.88 2784804.524 330 
9.43185 28957939.59 2953440.455 346 
9.44355 26701430.08 3090760.213 306 
9.45525 28220722.04 2939219.133 315 
9.46695 25275404.98 2809278.135 303 
9.47865 23366180.37 2444752.692 298 
9.49035 24672082.39 2296719.09 325 
9.50205 28453270.69 3070921.67 308 
9.51375 28855876.63 3467292.263 308 
9.52545 25204723.65 2715541.269 311 
9.53715 27999157.03 3200746.714 313 
9.54885 29747846.26 3200051.844 328 
9.56055 28639496.2 3181861.083 328 
9.57225 27504086.62 3203390.84 309 
9.58395 24041943.9 2887980.497 278 
9.59565 22493798.17 2671711.003 311 
9.60735 27523601.36 3119465.414 322 
9.61905 31371793.84 3229992.13 338 
9.63075 21449907.3 2315338.628 285 
9.64245 23795269.73 2540020.741 292 
9.65415 29604698.78 3255372.117 312 
9.66585 24738085.5 2663948.777 295 
9.67755 23077013.39 2694480.343 296 
9.68925 26361511.37 3055315.357 291 
9.70095 27675662.02 2932498.74 316 
9.71265 28148298.63 3188995.376 322 
9.72435 22129838.88 2362230.437 304 
9.73605 25404195.01 2760214.424 302 
9.74775 23361231.2 2513566.897 312 
9.75945 25316874.29 2801595.048 303 
9.77115 24145304.11 2761513.13 301 
9.78285 21809372.45 2366795.333 289 
9.79455 23600217.14 2779198.062 305 
9.80625 23436171.18 2602119.93 296 
9.81795 26303603.13 2672917.779 315 
9.82965 18785899.26 2099530.165 276 
9.84135 23561535.66 2434783.657 285 
9.85305 24712219.66 2902503.777 300 
9.86475 28581147.21 2993849.213 317 
9.87645 22901216.03 2208250.743 339 
9.88815 23058819.01 2578917.344 291 
9.89985 28489805.34 3170787.925 294 
9.91155 24440027.87 3026870.41 273 
9.92325 21206702.67 2492396.912 286 
9.93495 28006955.05 3031453.057 308 
9.94665 20855950.07 2418002.048 285 
9.95835 23498601.03 2489451.194 288 
9.97005 22399016.15 2700802.341 271 
9.98175 25907182.33 2841162.162 268 
9.99345 26593778.73 3080991.975 285 
10.00515 24607295.52 2742216.55 273 
10.01685 24604566.19 2827564.778 280 
10.02855 22024948.18 2530074.553 270 
10.04025 24836285.59 2719226.83 314 
10.05195 25368371.51 3009980.536 277 
10.06365 22802605.05 2779027.956 275 
10.07535 20219921.69 2356469.531 265 
10.08705 23599550.36 2853787.356 299 
10.09875 20731871.09 2512526.86 255 
10.11045 23333152 2846721.162 266 
10.12215 18840457.29 2336455.505 222 
10.13385 24012426.83 2925130.083 257 
10.14555 20904078.52 2607001.449 246 
10.15725 21506943.45 2857598.73 241 
10.16895 22588946.75 2645983.499 284 
10.18065 21147113.17 2544617.293 252 
10.19235 22552752.54 2350903.94 274 
10.20405 22181738.84 2310872.031 293 
10.21575 21800541.92 2976338.208 247 
10.22745 19827080.28 2100862.582 255 
10.23915 21223168.35 2582232.289 260 
10.25085 20655176.99 2611696.691 257 
10.26255 18298762.69 1990204.643 249 
10.27425 22532274.09 2455451.84 261 
10.28595 19955635.18 2467666.61 250 
10.29765 17570273.07 1980415.35 264 
10.30935 21873380.71 2684784.705 255 
10.32105 21336950.39 2589327.429 228 
10.33275 19102733.94 2365540.944 240 
10.34445 19414514.48 2503860.144 256 
10.35615 21141334.84 2448505.012 254 
10.36785 21072506.43 2537152.141 258 
10.37955 23938605.59 2943866.977 255 
10.39125 22505021.78 2640201.198 267 
10.40295 17867333.01 2431691.999 234 
10.41465 18830537.38 2253875.747 242 
10.42635 22017534.95 2898943.609 234 
10.43805 16360225.33 2224870.086 216 
10.44975 16378457.1 2265232.412 219 
10.46145 22440922.9 2733403.887 249 
10.47315 22494138.48 2748821.575 268 
10.48485 14525095.37 1804707.148 233 
10.49655 18443580.68 2407971.248 224 
10.50825 18974234.95 2365249.704 246 
10.51995 18862549.13 2581526.163 216 
10.53165 23082564.25 3170658.652 206 
10.54335 15505282.16 1927232.835 216 
10.55505 19075693.92 2422397.423 223 
10.56675 19723035.96 2187056.308 251 
10.57845 18813118.13 2776019.922 210 
10.59015 18634700.87 2430982.473 230 
10.60185 15943823.79 1961026.454 227 
10.61355 15561039 2023662.357 220 
10.62525 19138106.11 2730679.386 231 
10.63695 16090197.02 1906278.308 218 
10.64865 15619982.15 2129284.34 207 
10.66035 13419589.36 1842686.094 201 
10.67205 14773908.76 2063913.863 215 
10.68375 17968730.26 2458821.762 199 
10.69545 11894733.24 1556401.792 175 
10.70715 20198293.32 2408461.422 218 
10.71885 14638939.64 1875256.251 198 
10.73055 18619725.09 2437175.716 206 
10.74225 18884414.3 2744978.425 181 
10.75395 15097087.79 2267326.598 192 
10.76565 15582453.34 1875862.112 189 
10.77735 13810811.65 1762067.878 213 
10.78905 12362144.66 1899107.462 155 
10.80075 17152984.4 2149443.242 220 
10.81245 16448598.41 2287469.741 193 
10.82415 16755836.97 2590400.14 172 
10.83585 16751799.43 2558894.709 188 
10.84755 14912824.42 2091912.387 177 
10.85925 14685738.84 2076293.936 186 
10.87095 15391409.16 2147982.947 196 
10.88265 14768807.51 2272306.631 168 
10.89435 15980885.4 2257489.546 183 
10.90605 17962309.78 2695511.297 190 
10.91775 15437208.09 2290263.267 186 
10.92945 14600519.17 2342030.764 169 
10.94115 15179422.09 2204647.539 177 
10.95285 15636820.68 2306762.765 179 
10.96455 15405908.56 2198654.615 193 
10.97625 14506163.15 2328655.365 170 
10.98795 12229353.67 1669530.938 165 
10.99965 15163451.14 2178436.105 161 
11.01135 13151297.38 2058570.299 173 
11.02305 11918813.82 1739662.887 167 
11.03475 12544085.88 1953183.484 150 
11.04645 12530583.34 1939103.611 159 
11.05815 12580349.28 1839788.186 162 
11.06985 13951092.74 2153225.354 151 
11.08155 12811428.86 1851188.087 159 
11.09325 12481654.15 1946110.449 176 
11.10495 10620518.95 1796848.544 139 
11.11665 14510371.14 2389092.265 159 
11.12835 11204549.86 1794117.193 158 
11.14005 14127044.02 2181907.411 144 
11.15175 15194599.69 2391632.852 165 
11.16345 10130997.25 1652079.699 134 
11.17515 10038653.45 1729887.732 149 
11.18685 14399986.01 1964495.166 176 
11.19855 10743954.88 2141998.921 125 
11.21025 14804298.3 2310954.205 162 
11.22195 12978801.57 1730991.607 143 
11.23365 14750176.99 2415443.843 172 
11.24535 15700870.86 2218553.89 181 
11.25705 11975177.65 1682073.221 179 
11.26875 14155368.89 2146214.242 152 
11.28045 10835181.11 1716903.254 142 
11.29215 13866102.9 2354586.507 147 
11.30385 12563768.45 1759177.743 171 
11.31555 12550755.5 1950835.093 150 
11.32725 11750407.18 1686677.503 160 
11.33895 13178078.15 2162097.608 148 
11.35065 12779285.8 1785108.838 144 
11.36235 10156241.29 1420433.027 156 
11.37405 10769935.46 1566214.104 141 
11.38575 15506103.84 2349523.394 161 
11.39745 10083459.33 1653681.586 131 
11.40915 12368538.68 1825863.927 155 
11.42085 13516839.02 2268435.915 138 
11.43255 10009830.98 1708120.687 127 
11.44425 11353280.84 1940565.58 136 
11.45595 8141115.218 1344054.774 117 
11.46765 11410584.47 2137657.784 129 
11.47935 10397296.66 1860710.936 137 
11.49105 12060066.47 2070003.791 141 
11.50275 13754134.34 2328211.712 125 
11.51445 12143885.79 2099447.056 141 
11.52615 10841365.63 1758350.164 134 
11.53785 11975593.16 1752752.238 142 
11.54955 9714238.148 1470308.607 142 
11.56125 11907138.32 2019198.392 133 
11.57295 9879314.964 1443360.944 128 
11.58465 8479669.477 1258487.474 140 
11.59635 8225217.875 1137767.209 135 
11.60805 9611700.206 1482038.707 127 
11.61975 10791580.15 1949563.672 113 
11.63145 10262261.96 2039989.846 113 
11.64315 12105379.05 2074440.787 121 
11.65485 12012306.07 2155565.663 120 
11.66655 8299072.78 1412283.07 137 
11.67825 10169290.4 1637364.827 140 
11.68995 9603318.633 1386532.998 123 
11.70165 13906758.54 2342580.408 135 
11.71335 8893144.141 1551962.955 118 
11.72505 9416908.101 1441922.738 145 
11.73675 10585660.96 1386946.023 156 
11.74845 13511014.99 2539941.206 125 
11.76015 10157697.73 1854564.806 119 
11.77185 13215456.89 2101580.635 136 
11.78355 7945019.665 1113680.683 131 
11.79525 10225796.71 1859458.757 125 
11.80695 13533423.53 2247251.037 143 
11.81865 11885533.24 2056203.514 129 
11.83035 11665466.48 1843930.674 127 
11.84205 9272773.387 1606908.444 115 
11.85375 10960302.29 1960757.061 120 
11.86545 11390843.04 1950575.585 134 
11.87715 12381496.11 2060486.644 149 
11.88885 11584498.67 1871976.445 136 
11.90055 10582002.54 1951873.358 124 
11.91225 8048679.626 1191680.38 114 
11.92395 9129965.549 1417126.935 134 
11.93565 12606075.16 2247926.476 124 
11.94735 9458508.078 1949854.078 117 
11.95905 11102157.84 1819948.547 124 
11.97075 10463187.53 1709808.489 135 
11.98245 9405273.224 1476964.888 101 
11.99415 8696945.85 1500046.612 115 
